block_no	trial_no	trainOrTest	pan	SNR-BaseRate	signal	response	response_type	balance	RT
1	18	0	-0.36157392	2	2	2	3	0	444
1	3	0	0.32572348	2	1	1	1	0	131
1	1	0	-0.13343654	2	1	2	2	0	395
1	21	0	5.9785314e-002	2	2	1	4	0	183
1	4	0	0.41115789	2	1	1	1	0	119
1	11	0	0.14338958	2	2	2	3	0	375
1	39	0	-0.24515448	2	2	2	3	0	442
1	22	0	2.92374151e-002	2	2	1	4	0	624
1	40	0	0.110934445	2	2	2	3	0	507
1	28	0	-0.11709991	2	2	2	3	0	289
1	37	0	-0.26866115	2	2	2	3	0	227
1	16	0	-0.21692743	2	2	2	3	0	233
1	17	0	-0.51336343	2	2	2	3	0	527
1	12	0	-0.16004466	2	2	1	4	0	284
1	25	0	-3.685747e-003	2	2	2	3	0	750
1	29	0	0.1265549	2	2	1	4	0	249
1	5	0	8.040983e-002	2	1	2	2	0	416
1	38	0	3.804655e-003	2	2	2	3	0	1183
1	23	0	0.12556478	2	2	2	3	0	798
1	33	0	-0.32642107	2	2	2	3	0	360
1	31	0	0.39238487	2	2	1	4	0	215
1	7	0	4.8289447e-002	2	1	1	1	0	238
1	13	0	-0.16343062	2	2	2	3	0	161
1	30	0	-0.3923374	2	2	2	3	0	205
1	2	0	3.897111e-002	2	1	1	1	0	620
1	27	0	9.846145e-003	2	2	2	3	0	595
1	32	0	-0.13405107	2	2	2	3	0	480
1	34	0	-0.30900583	2	2	2	3	0	387
1	10	0	-0.26852015	2	1	2	2	0	751
1	8	0	-9.4787042e-002	2	1	2	2	0	363
1	9	0	5.9231832e-002	2	1	1	1	0	510
1	6	0	0.37716521	2	1	1	1	0	358
1	20	0	7.7662687e-002	2	2	2	3	0	290
1	24	0	-0.11987415	2	2	2	3	0	298
1	19	0	-0.18813147	2	2	2	3	0	173
1	15	0	-8.435055e-002	2	2	1	4	0	63
1	14	0	5.2595858e-002	2	2	2	3	0	424
1	36	0	0.18036002	2	2	1	4	0	235
1	35	0	-8.82537e-002	2	2	2	3	0	216
1	26	0	-9.237085e-002	2	2	1	4	0	324
1	97	1	0.23430125	2	2	1	4	0	166
1	44	1	0.49177258	2	1	1	1	10	763
1	87	1	0.10148328	2	1	1	1	20	537
1	239	1	-0.20489549	2	2	2	3	30	320
1	193	1	-7.2891938e-002	2	2	2	3	40	584
1	131	1	-9.552125e-003	2	2	1	4	40	1297
1	180	1	0.13679708	2	2	1	4	40	650
1	56	1	0.27101089	2	1	1	1	50	271
1	123	1	-0.22293854	2	2	2	3	60	323
1	150	1	0.31090784	2	2	1	4	60	286
1	42	1	6.530327e-002	2	1	2	2	60	580
1	170	1	-0.37418168	2	2	2	3	70	107
1	111	1	-0.14637011	2	2	2	3	80	222
1	127	1	-0.30893656	2	2	2	3	90	267
1	171	1	3.812619e-002	2	2	2	3	100	704
1	166	1	0.23477025	2	2	1	4	100	277
1	198	1	-0.41575539	2	2	2	3	110	251
1	236	1	-0.15739022	2	2	2	3	120	286
1	61	1	-0.31615979	2	1	2	2	120	271
1	194	1	-0.41257897	2	2	2	3	130	253
1	229	1	0.17362442	2	2	1	4	130	164
1	173	1	-0.12823814	2	2	2	3	140	1062
1	147	1	-0.33068343	2	2	2	3	150	267
1	155	1	0.39309502	2	2	1	4	150	301
1	182	1	0.17515469	2	2	1	4	150	305
1	107	1	0.19999519	2	2	1	4	150	931
1	223	1	-0.34446059	2	2	2	3	160	289
1	70	1	-0.12956205	2	1	2	2	160	292
1	157	1	-0.11177785	2	2	2	3	170	377
1	93	1	-0.18056689	2	2	2	3	180	591
1	145	1	-1.256602e-003	2	2	1	4	180	927
1	209	1	-0.10430121	2	2	2	3	190	601
1	48	1	-2.14450587e-002	2	1	2	2	190	782
1	240	1	-0.1252625	2	2	2	3	200	316
1	102	1	0.17197381	2	2	1	4	200	350
1	137	1	4.8538174e-002	2	2	1	4	200	538
1	118	1	0.24698144	2	2	1	4	200	333
1	151	1	-3.9912391e-002	2	2	2	3	210	934
1	105	1	0.16613874	2	2	1	4	210	503
1	233	1	-0.26271007	2	2	2	3	220	442
1	205	1	3.7812851e-002	2	2	1	4	220	639
1	104	1	-6.7725371e-002	2	2	2	3	230	355
1	179	1	0.13232658	2	2	1	4	230	339
1	135	1	0.38123648	2	2	1	4	230	241
1	164	1	-5.6115865e-002	2	2	2	3	240	784
1	110	1	-0.60400465	2	2	2	3	250	281
1	65	1	7.6616506e-002	2	1	2	2	250	1290
1	129	1	-7.7074819e-002	2	2	2	3	260	369
1	220	1	-0.14024161	2	2	2	3	270	212
1	212	1	0.2094502	2	2	1	4	270	309
1	96	1	7.906485e-003	2	2	2	3	280	435
1	74	1	0.20143737	2	1	2	2	280	252
1	218	1	-0.3667513	2	2	2	3	290	272
1	46	1	3.1895143e-002	2	1	2	2	290	274
1	130	1	-0.25913425	2	2	2	3	300	253
1	141	1	-0.19059606	2	2	2	3	310	316
1	83	1	0.11998721	2	1	2	2	310	329
1	136	1	8.9528688e-002	2	2	1	4	310	634
1	167	1	2.77255155e-002	2	2	2	3	320	363
1	45	1	8.533867e-002	2	1	2	2	320	445
1	80	1	-0.41113752	2	1	2	2	320	255
1	116	1	-6.8141307e-002	2	2	2	3	330	283
1	52	1	0.10915861	2	1	1	1	340	410
1	90	1	0.15286184	2	1	1	1	350	259
1	156	1	-0.23625364	2	2	2	3	360	110
1	51	1	0.12905279	2	1	1	1	370	263
1	232	1	-0.34927877	2	2	2	3	380	236
1	139	1	-5.4042698e-002	2	2	2	3	390	264
1	210	1	-0.1905236	2	2	2	3	400	218
1	204	1	-3.930458e-003	2	2	1	4	400	820
1	132	1	-0.1088256	2	2	2	3	410	535
1	120	1	-0.16192347	2	2	2	3	420	334
1	186	1	-1.6266538e-002	2	2	2	3	430	400
1	41	1	0.1465883	2	1	1	1	440	276
1	58	1	0.20988084	2	1	1	1	450	460
1	71	1	-6.7074072e-002	2	1	2	2	450	1024
1	109	1	0.38875992	2	2	1	4	450	586
1	201	1	-0.39854532	2	2	2	3	460	375
1	57	1	5.3839892e-002	2	1	1	1	470	336
1	78	1	0.16115781	2	1	1	1	480	344
1	128	1	-0.15553746	2	2	2	3	490	283
1	234	1	-1.3334661e-002	2	2	1	4	490	373
1	53	1	-0.14361708	2	1	2	2	490	279
1	221	1	7.1900582e-002	2	2	1	4	490	268
1	208	1	-0.30894308	2	2	2	3	500	255
1	219	1	-2.4811795e-002	2	2	2	3	510	321
1	203	1	0.18873028	2	2	1	4	510	285
1	77	1	0.26382708	2	1	1	1	520	570
1	75	1	-8.5657077e-002	2	1	2	2	520	206
1	106	1	2.90211464e-002	2	2	1	4	520	1210
1	190	1	-0.49400561	2	2	2	3	530	280
1	63	1	0.22078992	2	1	1	1	540	341
1	200	1	0.22581027	2	2	2	3	550	577
1	100	1	2.46775355e-002	2	2	1	4	550	1112
1	47	1	0.28769504	2	1	2	2	550	512
1	92	1	-0.24881624	2	2	2	3	560	197
1	143	1	5.822371e-003	2	2	2	3	570	371
1	176	1	-3.4424031e-002	2	2	2	3	580	489
1	211	1	-0.21160656	2	2	2	3	590	657
1	122	1	-0.13545935	2	2	2	3	600	197
1	206	1	-0.17500764	2	2	2	3	610	60
1	185	1	0.55325062	2	2	1	4	610	372
1	184	1	-0.39989008	2	2	2	3	620	242
1	88	1	0.16778188	2	1	1	1	630	186
1	178	1	0.28357483	2	2	1	4	630	184
1	68	1	7.3886156e-002	2	1	1	1	640	1822
1	79	1	0.46323678	2	1	1	1	650	279
1	125	1	-0.12511662	2	2	2	3	660	118
1	188	1	-7.8414821e-002	2	2	2	3	670	534
1	149	1	-2.3779708e-002	2	2	2	3	680	472
1	161	1	-0.14545246	2	2	2	3	690	322
1	231	1	-0.16593029	2	2	2	3	700	912
1	153	1	-5.1238193e-002	2	2	2	3	710	293
1	43	1	0.28955137	2	1	1	1	720	249
1	66	1	-8.332836e-003	2	1	2	2	720	247
1	213	1	-0.10341147	2	2	2	3	730	288
1	226	1	-2.6916234e-002	2	2	1	4	730	2128
1	103	1	-0.3011759	2	2	2	3	740	209
1	181	1	-0.3139344	2	2	2	3	750	255
1	84	1	-0.12766293	2	1	2	2	750	239
1	144	1	-0.22037325	2	2	2	3	760	9904
1	140	1	3.6285854e-002	2	2	1	4	760	1247
1	112	1	-0.14772671	2	2	2	3	770	144
1	172	1	-0.22003672	2	2	2	3	780	80
1	94	1	-0.34784397	2	2	2	3	790	154
1	160	1	-2.8962153e-002	2	2	2	3	800	991
1	60	1	4.1499889e-002	2	1	2	2	800	762
1	119	1	-0.1380538	2	2	2	3	810	456
1	177	1	0.26894399	2	2	1	4	810	254
1	62	1	0.15258765	2	1	1	1	820	213
1	126	1	-0.2256728	2	2	2	3	830	191
1	95	1	-0.20059274	2	2	2	3	840	210
1	225	1	0.14020958	2	2	1	4	840	276
1	174	1	-0.25388339	2	2	2	3	850	17
1	72	1	-0.19131252	2	1	2	2	850	57
1	162	1	6.8421419e-002	2	2	1	4	850	247
1	228	1	-0.16418663	2	2	2	3	860	240
1	196	1	-0.11001338	2	2	2	3	870	269
1	227	1	-0.11719107	2	2	2	3	880	373
1	191	1	-0.22311001	2	2	2	3	890	764
1	146	1	-0.24610845	2	2	2	3	900	491
1	169	1	-0.34834922	2	2	2	3	910	172
1	50	1	5.8702418e-002	2	1	1	1	920	567
1	55	1	-5.589763e-002	2	1	2	2	920	200
1	168	1	-7.3387859e-002	2	2	2	3	930	247
1	98	1	-0.30630974	2	2	2	3	940	322
1	114	1	-0.18424734	2	2	2	3	950	296
1	69	1	0.12078355	2	1	1	1	960	379
1	224	1	-6.0733685e-002	2	2	2	3	970	310
1	187	1	-0.21258734	2	2	2	3	980	91
1	91	1	-1.353406e-003	2	2	2	3	990	978
1	64	1	-7.0519389e-002	2	1	2	2	990	461
1	81	1	6.1787318e-002	2	1	1	1	1000	129
1	108	1	0.16329766	2	2	1	4	1000	94
1	124	1	-0.12385709	2	2	2	3	1010	1477
1	238	1	-0.2119555	2	2	2	3	1020	499
1	67	1	0.42026696	2	1	1	1	1030	254
1	82	1	7.5063991e-002	2	1	1	1	1040	210
1	101	1	0.1287928	2	2	1	4	1040	136
1	154	1	-3.3980823e-002	2	2	2	3	1050	289
1	199	1	-2.8932783e-002	2	2	2	3	1060	274
1	222	1	-0.1559895	2	2	2	3	1070	384
1	215	1	-4.938561e-003	2	2	2	3	1080	325
1	195	1	-0.17829847	2	2	2	3	1090	200
1	115	1	0.20444664	2	2	1	4	1090	287
1	237	1	-0.10448704	2	2	2	3	1100	157
1	99	1	-1.0936267e-002	2	2	2	3	1110	281
1	216	1	-0.28297747	2	2	2	3	1120	124
1	163	1	-0.28114079	2	2	2	3	1130	248
1	158	1	-0.21474187	2	2	2	3	1140	94
1	165	1	-3.9911649e-002	2	2	2	3	1150	280
1	189	1	-6.6198116e-002	2	2	2	3	1160	708
1	148	1	-0.36068602	2	2	2	3	1170	1635
1	217	1	-0.45797164	2	2	2	3	1180	255
1	89	1	7.1801319e-002	2	1	1	1	1190	304
1	113	1	-0.36472456	2	2	2	3	1200	781
1	133	1	-0.13213128	2	2	2	3	1210	234
1	142	1	-0.37851176	2	2	2	3	1220	227
1	73	1	0.22571712	2	1	1	1	1230	157
1	197	1	-6.3733531e-002	2	2	2	3	1240	186
1	85	1	0.18587337	2	1	1	1	1250	270
1	117	1	0.112117046	2	2	1	4	1250	236
1	138	1	-7.9055991e-002	2	2	2	3	1260	163
1	214	1	4.5986958e-002	2	2	2	3	1270	103
1	54	1	-3.9388228e-002	2	1	2	2	1270	187
1	121	1	-0.34342393	2	2	2	3	1280	164
1	134	1	0.102346658	2	2	1	4	1280	294
1	159	1	6.2809639e-002	2	2	1	4	1280	220
1	76	1	0.65752886	2	1	1	1	1290	169
1	192	1	2.58638907e-002	2	2	1	4	1290	244
1	59	1	0.19970301	2	1	1	1	1300	254
1	235	1	-0.29851775	2	2	2	3	1310	171
1	175	1	-4.3679364e-002	2	2	2	3	1320	135
1	230	1	0.102861431	2	2	1	4	1320	254
1	183	1	-0.26831448	2	2	2	3	1330	101
1	207	1	-0.11703781	2	2	2	3	1340	108
1	86	1	-0.36342376	2	1	2	2	1340	83
1	202	1	7.758058e-003	2	2	1	4	1340	327
1	49	1	-0.21661594	2	1	2	2	1340	207
1	152	1	1.81007037e-002	2	2	1	4	1340	522
2	14	0	0.22954421	1	2	1	4	1340	145
2	40	0	-0.35553944	1	2	2	3	1340	99
2	16	0	-0.16723568	1	2	2	3	1340	35
2	6	0	-3.0945376e-002	1	1	2	2	1340	153
2	11	0	-5.0582716e-002	1	2	1	4	1340	181
2	33	0	-8.021741e-002	1	2	2	3	1340	141
2	22	0	-0.21068423	1	2	2	3	1340	81
2	2	0	9.765242e-003	1	1	2	2	1340	428
2	27	0	-0.1285789	1	2	2	3	1340	151
2	9	0	9.268331e-002	1	1	1	1	1340	144
2	19	0	-9.121081e-002	1	2	2	3	1340	155
2	25	0	-0.17861721	1	2	2	3	1340	289
2	8	0	-9.2640705e-002	1	1	2	2	1340	271
2	38	0	5.8558144e-002	1	2	1	4	1340	134
2	17	0	-0.18529907	1	2	2	3	1340	361
2	5	0	0.2232881	1	1	1	1	1340	112
2	34	0	-0.11515204	1	2	2	3	1340	45
2	31	0	-6.1858604e-002	1	2	2	3	1340	216
2	24	0	1.58632914e-002	1	2	1	4	1340	135
2	39	0	-1.9487214e-002	1	2	2	3	1340	316
2	26	0	-0.10371892	1	2	2	3	1340	62
2	21	0	-6.4512137e-002	1	2	2	3	1340	74
2	35	0	-9.448697e-002	1	2	2	3	1340	152
2	29	0	-0.14399174	1	2	2	3	1340	45
2	28	0	-8.611639e-002	1	2	2	3	1340	132
2	18	0	-0.17755996	1	2	2	3	1340	145
2	13	0	7.9767248e-002	1	2	1	4	1340	169
2	3	0	0.10512992	1	1	1	1	1340	403
2	12	0	-9.947766e-002	1	2	2	3	1340	273
2	7	0	0.10137587	1	1	1	1	1340	226
2	10	0	0.15843111	1	1	1	1	1340	143
2	4	0	0.11524129	1	1	1	1	1340	124
2	30	0	-0.15153235	1	2	2	3	1340	201
2	20	0	-4.5457741e-002	1	2	2	3	1340	120
2	37	0	-0.14541422	1	2	2	3	1340	58
2	32	0	-0.11025944	1	2	2	3	1340	225
2	23	0	7.2571169e-002	1	2	1	4	1340	274
2	15	0	-0.15557957	1	2	2	3	1340	188
2	36	0	-5.8592861e-002	1	2	2	3	1340	173
2	1	0	0.13742491	1	1	1	1	1340	103
2	237	1	-0.12647478	1	2	2	3	1350	221
2	180	1	-1.3914392e-002	1	2	2	3	1360	155
2	194	1	-0.16407	1	2	2	3	1370	84
2	100	1	-6.6440169e-002	1	2	2	3	1380	66
2	161	1	-0.23995276	1	2	2	3	1390	31
2	56	1	-1.87223016e-002	1	1	2	2	1390	652
2	164	1	-7.579729e-003	1	2	1	4	1390	201
2	211	1	-6.1741038e-002	1	2	2	3	1400	32
2	238	1	-5.0379918e-002	1	2	2	3	1410	112
2	53	1	0.10688596	1	1	1	1	1420	89
2	232	1	2.1388343e-002	1	2	1	4	1420	139
2	205	1	-8.863923e-002	1	2	2	3	1430	91
2	140	1	-0.11276937	1	2	2	3	1440	22
2	73	1	0.20561678	1	1	1	1	1450	84
2	65	1	0.12235998	1	1	1	1	1460	282
2	107	1	-0.1243666	1	2	2	3	1470	140
2	81	1	0.13546373	1	1	1	1	1480	117
2	230	1	-0.10315608	1	2	2	3	1490	141
2	234	1	-4.8431489e-002	1	2	2	3	1500	233
2	226	1	-6.6638926e-002	1	2	2	3	1510	497
2	108	1	-0.2426538	1	2	2	3	1520	148
2	83	1	7.4931581e-002	1	1	1	1	1530	182
2	67	1	-0.13245676	1	1	2	2	1530	191
2	184	1	9.5070022e-002	1	2	1	4	1530	105
2	138	1	-0.2065754	1	2	2	3	1540	101
2	58	1	-8.2229968e-002	1	1	2	2	1540	67
2	132	1	2.097516e-003	1	2	1	4	1540	495
2	96	1	-3.0717281e-002	1	2	2	3	1550	134
2	189	1	-0.22935492	1	2	2	3	1560	9
2	181	1	-0.22336936	1	2	2	3	1570	52
2	57	1	0.1167608	1	1	1	1	1580	134
2	112	1	-0.13856206	1	2	2	3	1590	127
2	131	1	5.6276522e-002	1	2	1	4	1590	396
2	152	1	-0.18230851	1	2	2	3	1600	28
2	91	1	-2.5833749e-002	1	2	2	3	1610	375
2	147	1	5.7217995e-002	1	2	1	4	1610	237
2	216	1	-0.22553607	1	2	2	3	1620	128
2	89	1	0.20575957	1	1	1	1	1630	153
2	71	1	0.1769565	1	1	1	1	1640	65
2	190	1	-9.47965e-002	1	2	2	3	1650	115
2	127	1	-8.18266e-002	1	2	2	3	1660	117
2	177	1	-3.9695567e-002	1	2	2	3	1670	103
2	236	1	-0.17140585	1	2	2	3	1680	107
2	165	1	-8.860457e-002	1	2	2	3	1690	70
2	77	1	0.2005195	1	1	1	1	1700	274
2	99	1	-0.2619451	1	2	2	3	1710	217
2	66	1	2.990766e-002	1	1	1	1	1720	236
2	114	1	-9.17377e-002	1	2	2	3	1730	190
2	128	1	-0.19904368	1	2	2	3	1740	36
2	62	1	0.10701127	1	1	1	1	1750	251
2	123	1	-9.276445e-002	1	2	2	3	1760	161
2	169	1	-6.9477721e-002	1	2	2	3	1770	56
2	52	1	0.12948384	1	1	1	1	1780	83
2	240	1	-0.13638567	1	2	2	3	1790	698
2	136	1	5.339716e-003	1	2	2	3	1800	101
2	195	1	4.6778117e-002	1	2	1	4	1800	133
2	167	1	-6.1497218e-002	1	2	2	3	1810	76
2	178	1	-8.766e-002	1	2	2	3	1820	137
2	201	1	-0.14238256	1	2	2	3	1830	116
2	50	1	9.36665e-002	1	1	1	1	1840	144
2	160	1	-0.1797452	1	2	2	3	1850	122
2	118	1	-0.12959388	1	2	2	3	1860	100
2	60	1	0.18579424	1	1	1	1	1870	431
2	90	1	-3.8415584e-002	1	1	2	2	1870	115
2	200	1	6.9739405e-002	1	2	1	4	1870	728
2	210	1	-9.085665e-002	1	2	2	3	1880	128
2	70	1	0.10848033	1	1	2	2	1880	548
2	125	1	-9.284788e-002	1	2	2	3	1890	176
2	221	1	-2.1989522e-002	1	2	1	4	1890	532
2	109	1	-0.13331681	1	2	2	3	1900	980
2	41	1	8.026644e-002	1	1	1	1	1910	972
2	120	1	-4.6069594e-002	1	2	2	3	1920	108
2	80	1	0.34928842	1	1	1	1	1930	302
2	217	1	-0.14197757	1	2	2	3	1940	724
2	129	1	-6.7205342e-002	1	2	2	3	1950	456
2	198	1	-5.177397e-002	1	2	2	3	1960	304
2	239	1	-0.11570425	1	2	2	3	1970	1018
2	206	1	-6.6930784e-002	1	2	2	3	1980	114
2	231	1	-5.5629565e-002	1	2	2	3	1990	91
2	153	1	-0.13247808	1	2	2	3	2000	245
2	207	1	-0.18640567	1	2	2	3	2010	174
2	46	1	7.5246141e-002	1	1	1	1	2020	110
2	79	1	0.13323352	1	1	1	1	2030	29
2	166	1	8.4813644e-002	1	2	1	4	2030	449
2	144	1	-9.653718e-002	1	2	2	3	2040	155
2	116	1	-7.2076387e-002	1	2	2	3	2050	156
2	199	1	-0.27583449	1	2	2	3	2060	52
2	88	1	-9.1604702e-002	1	1	2	2	2060	248
2	212	1	-0.10784456	1	2	2	3	2070	153
2	133	1	-0.13391931	1	2	2	3	2080	162
2	233	1	-2.1208695e-002	1	2	2	3	2090	282
2	150	1	-0.12709146	1	2	2	3	2100	67
2	148	1	-0.26304714	1	2	2	3	2110	236
2	222	1	0.12787723	1	2	1	4	2110	195
2	208	1	-6.6730519e-002	1	2	2	3	2120	77
2	84	1	0.26022655	1	1	1	1	2130	190
2	225	1	-0.26299961	1	2	2	3	2140	334
2	47	1	0.22788748	1	1	1	1	2150	384
2	54	1	0.13685727	1	1	1	1	2160	309
2	43	1	0.19645313	1	1	1	1	2170	150
2	122	1	-0.11265494	1	2	2	3	2180	170
2	49	1	7.9646825e-002	1	1	1	1	2190	316
2	63	1	5.8473056e-002	1	1	1	1	2200	127
2	119	1	-1.8226163e-002	1	2	1	4	2200	64
2	214	1	8.499534e-003	1	2	2	3	2210	243
2	111	1	-3.7051816e-002	1	2	2	3	2220	744
2	158	1	-2.3008759e-002	1	2	2	3	2230	253
2	174	1	-5.5173839e-002	1	2	2	3	2240	575
2	176	1	-0.14366716	1	2	2	3	2250	397
2	85	1	7.0490252e-002	1	1	1	1	2260	249
2	75	1	9.223801e-002	1	1	1	1	2270	16
2	51	1	0.23389838	1	1	1	1	2280	11
2	155	1	-0.20279347	1	2	2	3	2290	160
2	98	1	-0.12090147	1	2	2	3	2300	295
2	64	1	0.10774568	1	1	1	1	2310	499
2	48	1	0.13777708	1	1	1	1	2320	275
2	121	1	-4.1555261e-002	1	2	2	3	2330	317
2	145	1	-0.13485457	1	2	2	3	2340	164
2	156	1	2.47608985e-002	1	2	2	3	2350	207
2	134	1	0.12646126	1	2	1	4	2350	240
2	209	1	-0.228837	1	2	2	3	2360	116
2	94	1	-0.13378651	1	2	2	3	2370	77
2	82	1	0.19765185	1	1	1	1	2380	172
2	139	1	-0.15022808	1	2	2	3	2390	277
2	235	1	6.2647673e-002	1	2	1	4	2390	216
2	173	1	2.40086182e-002	1	2	1	4	2390	38
2	143	1	-0.1322712	1	2	2	3	2400	103
2	154	1	-9.651624e-003	1	2	2	3	2410	600
2	168	1	-0.12029854	1	2	2	3	2420	135
2	74	1	0.15411656	1	1	1	1	2430	233
2	106	1	-2.8405029e-002	1	2	2	3	2440	489
2	193	1	-8.044852e-002	1	2	2	3	2450	555
2	93	1	-0.23656505	1	2	2	3	2460	54
2	151	1	-2.4526007e-002	1	2	2	3	2470	533
2	224	1	-0.16460849	1	2	2	3	2480	160
2	229	1	2.90049088e-002	1	2	2	3	2490	234
2	159	1	-8.14889e-002	1	2	2	3	2500	561
2	59	1	1.0585226e-002	1	1	2	2	2500	811
2	197	1	-6.4733799e-002	1	2	2	3	2510	126
2	104	1	-0.10132939	1	2	2	3	2520	292
2	223	1	-0.18790494	1	2	2	3	2530	103
2	204	1	-4.5643802e-002	1	2	2	3	2540	604
2	137	1	-0.28727507	1	2	2	3	2550	326
2	215	1	-0.23939985	1	2	2	3	2560	183
2	61	1	1.0542174e-002	1	1	1	1	2570	1136
2	228	1	-0.11715008	1	2	2	3	2580	148
2	115	1	-0.23188602	1	2	2	3	2590	71
2	203	1	-0.1001298	1	2	2	3	2600	132
2	219	1	-4.5429684e-002	1	2	2	3	2610	81
2	117	1	-8.263233e-003	1	2	1	4	2610	376
2	92	1	-0.10117722	1	2	2	3	2620	109
2	103	1	-0.22551225	1	2	2	3	2630	138
2	175	1	-0.21608036	1	2	2	3	2640	311
2	185	1	-7.1467428e-002	1	2	2	3	2650	445
2	141	1	-0.21115514	1	2	2	3	2660	1367
2	126	1	-0.22557339	1	2	2	3	2670	323
2	124	1	-9.342674e-002	1	2	2	3	2680	438
2	97	1	-5.8490166e-002	1	2	2	3	2690	322
2	172	1	7.5675277e-002	1	2	1	4	2690	167
2	187	1	-0.23754091	1	2	2	3	2700	279
2	68	1	0.18211527	1	1	1	1	2710	1012
2	170	1	-0.14159701	1	2	2	3	2720	2344
2	55	1	7.0140904e-002	1	1	1	1	2730	2361
2	220	1	-0.11553408	1	2	2	3	2740	582
2	95	1	0.21095092	1	2	1	4	2740	1849
2	142	1	-1.4491938e-002	1	2	2	3	2750	2635
2	227	1	-5.20646e-004	1	2	2	3	2760	3477
2	202	1	-4.0910144e-002	1	2	2	3	2770	1183
2	192	1	-0.20880772	1	2	2	3	2780	544
2	135	1	3.3935712e-002	1	2	2	3	2790	2620
2	76	1	4.4121003e-002	1	1	2	2	2790	1202
2	78	1	0.12457834	1	1	1	1	2800	203
2	69	1	2.4207995e-002	1	1	1	1	2810	118
2	162	1	-6.466193e-002	1	2	2	3	2820	498
2	44	1	0.1586436	1	1	1	1	2830	118
2	183	1	-1.3139049e-002	1	2	2	3	2840	55
2	87	1	7.8335692e-002	1	1	1	1	2850	122
2	45	1	9.603417e-002	1	1	1	1	2860	234
2	105	1	2.73617254e-002	1	2	1	4	2860	236
2	218	1	-3.7179226e-002	1	2	2	3	2870	126
2	196	1	0.14273835	1	2	1	4	2870	187
2	130	1	-0.19664453	1	2	2	3	2880	320
2	149	1	-0.17614645	1	2	2	3	2890	44
2	86	1	-1.949939017e-002	1	1	2	2	2890	140
2	102	1	-0.17233815	1	2	2	3	2900	134
2	146	1	-8.882594e-002	1	2	2	3	2910	410
2	213	1	-4.7428047e-002	1	2	2	3	2920	375
2	157	1	-4.5782133e-002	1	2	2	3	2930	644
2	182	1	-1.6702408e-002	1	2	1	4	2930	194
2	191	1	-0.15794755	1	2	2	3	2940	79
2	179	1	5.8243584e-002	1	2	1	4	2940	126
2	72	1	-2.82401244e-002	1	1	2	2	2940	66
2	171	1	-1.1246945e-002	1	2	2	3	2950	131
2	42	1	-3.5762176e-002	1	1	2	2	2950	126
2	101	1	-0.38789632	1	2	2	3	2960	275
2	163	1	-8.444265e-003	1	2	2	3	2970	382
2	113	1	6.1674407e-002	1	2	1	4	2970	170
2	188	1	-0.12603391	1	2	2	3	2980	73
2	186	1	-5.369847e-002	1	2	2	3	2990	161
2	110	1	-0.19855783	1	2	2	3	3000	133
3	22	0	5.0124214e-002	3	1	1	1	3000	355
3	8	0	-2.92419273e-002	3	1	1	1	3000	132
3	15	0	0.11135621	3	1	1	1	3000	30
3	11	0	0.23337581	3	1	1	1	3000	364
3	9	0	-3.8631716e-002	3	1	2	2	3000	285
3	34	0	-0.10847511	3	2	2	3	3000	49
3	21	0	0.27347692	3	1	1	1	3000	47
3	13	0	0.175323	3	1	1	1	3000	59
3	33	0	-3.0282193e-002	3	2	2	3	3000	180
3	1	0	-2.19876562e-002	3	1	1	1	3000	330
3	38	0	0.13297614	3	2	1	4	3000	81
3	5	0	0.13167275	3	1	1	1	3000	72
3	32	0	-8.324914e-002	3	2	2	3	3000	24
3	40	0	0.15246577	3	2	1	4	3000	71
3	29	0	-3.0366566e-002	3	1	2	2	3000	92
3	19	0	5.1944397e-002	3	1	1	1	3000	30
3	37	0	-0.21163658	3	2	2	3	3000	113
3	10	0	0.11383675	3	1	1	1	3000	39
3	26	0	5.3873597e-002	3	1	2	2	3000	331
3	2	0	0.13552483	3	1	1	1	3000	98
3	36	0	-0.11249153	3	2	2	3	3000	103
3	23	0	0.11829812	3	1	1	1	3000	101
3	4	0	0.28614805	3	1	1	1	3000	172
3	27	0	7.3855205e-002	3	1	1	1	3000	370
3	17	0	7.81766999999999e-004	3	1	2	2	3000	186
3	18	0	0.15440953	3	1	1	1	3000	42
3	30	0	3.4121782e-002	3	1	1	1	3000	98
3	7	0	6.2359489e-002	3	1	1	1	3000	120
3	6	0	0.13178204	3	1	1	1	3000	44
3	12	0	0.11777978	3	1	1	1	3000	56
3	14	0	3.0985652e-002	3	1	1	1	3000	20
3	16	0	5.3619508e-002	3	1	1	1	3000	307
3	3	0	0.10699959	3	1	1	1	3000	228
3	39	0	-9.961227e-002	3	2	2	3	3000	125
3	25	0	9.564592e-002	3	1	1	1	3000	24
3	28	0	3.6510476e-002	3	1	1	1	3000	245
3	20	0	-0.24169378	3	1	2	2	3000	129
3	31	0	-0.17514134	3	2	2	3	3000	60
3	24	0	3.4561251e-002	3	1	1	1	3000	861
3	35	0	-8.458646e-002	3	2	2	3	3000	225
3	209	1	-0.12216624	3	2	2	3	3010	72
3	142	1	0.11421426	3	1	1	1	3020	24
3	103	1	-2.14729752e-002	3	1	2	2	3020	140
3	140	1	-0.1289257	3	1	2	2	3020	61
3	131	1	0.14380547	3	1	1	1	3030	37
3	110	1	0.20731406	3	1	1	1	3040	117
3	78	1	0.21664699	3	1	1	1	3050	364
3	147	1	-3.1893182e-002	3	1	2	2	3050	86
3	232	1	-1.176477e-002	3	2	2	3	3060	34
3	121	1	0.11466508	3	1	1	1	3070	55
3	170	1	-8.570833e-003	3	1	2	2	3070	95
3	205	1	-7.5198904e-002	3	2	2	3	3080	50
3	119	1	3.6882061e-002	3	1	2	2	3080	89
3	75	1	-5.023028e-002	3	1	2	2	3080	38
3	157	1	-4.5317128e-002	3	1	2	2	3080	182
3	233	1	-6.789602e-002	3	2	2	3	3090	142
3	47	1	0.17304011	3	1	1	1	3100	127
3	115	1	0.14085107	3	1	1	1	3110	97
3	211	1	-0.1164281	3	2	2	3	3120	104
3	61	1	0.10498687	3	1	1	1	3130	133
3	117	1	0.10553501	3	1	1	1	3140	92
3	184	1	1.5991466e-002	3	1	1	1	3150	114
3	144	1	0.14547007	3	1	1	1	3160	71
3	231	1	-6.9421496e-002	3	2	2	3	3170	344
3	54	1	-9.4483454e-002	3	1	2	2	3170	85
3	96	1	0.16906168	3	1	1	1	3180	148
3	145	1	0.10868112	3	1	1	1	3190	202
3	68	1	0.16313831	3	1	1	1	3200	26
3	81	1	0.17198154	3	1	1	1	3210	90
3	218	1	-7.6625992e-002	3	2	2	3	3220	245
3	183	1	-7.2167947e-002	3	1	2	2	3220	140
3	74	1	0.13461935	3	1	1	1	3230	147
3	102	1	0.11399682	3	1	1	1	3240	90
3	65	1	0.25095552	3	1	1	1	3250	56
3	41	1	0.1081645	3	1	1	1	3260	182
3	199	1	-5.3891144e-002	3	2	2	3	3270	104
3	139	1	8.259045e-002	3	1	1	1	3280	376
3	126	1	-2.60486854e-002	3	1	2	2	3280	55
3	206	1	-0.12929231	3	2	2	3	3290	50
3	58	1	0.19739685	3	1	1	1	3300	61
3	229	1	-0.21112816	3	2	2	3	3310	108
3	236	1	-0.13866929	3	2	2	3	3320	40
3	228	1	-0.14409754	3	2	2	3	3330	1648
3	235	1	-0.23230231	3	2	2	3	3340	181
3	215	1	-8.846665e-002	3	2	2	3	3350	127
3	161	1	5.905386e-002	3	1	1	1	3360	119
3	108	1	9.466801e-002	3	1	1	1	3370	114
3	234	1	-0.15636211	3	2	2	3	3380	34
3	90	1	0.25938176	3	1	1	1	3390	111
3	105	1	-7.362053e-002	3	1	2	2	3390	86
3	153	1	0.11487475	3	1	1	1	3400	274
3	186	1	5.4633332e-002	3	1	2	2	3400	355
3	137	1	7.9426774e-002	3	1	1	1	3410	178
3	116	1	8.359244e-002	3	1	1	1	3420	291
3	104	1	8.931455e-002	3	1	1	1	3430	102
3	207	1	-4.6456292e-002	3	2	2	3	3440	188
3	107	1	0.13720621	3	1	1	1	3450	161
3	46	1	7.4494948e-002	3	1	2	2	3450	358
3	89	1	0.18476546	3	1	1	1	3460	307
3	164	1	7.1387484e-002	3	1	1	1	3470	350
3	53	1	0.10228711	3	1	1	1	3480	328
3	67	1	1.435469e-002	3	1	2	2	3480	398
3	204	1	4.713423e-003	3	2	2	3	3490	62
3	200	1	-0.12022724	3	2	2	3	3500	178
3	55	1	2.736874e-003	3	1	2	2	3500	283
3	45	1	-6.447642e-003	3	1	2	2	3500	159
3	84	1	-6.1585697e-002	3	1	2	2	3500	22
3	127	1	0.19547268	3	1	1	1	3510	10
3	56	1	1.0051949e-002	3	1	1	1	3520	730
3	43	1	0.12827477	3	1	1	1	3530	248
3	129	1	0.30035285	3	1	1	1	3540	329
3	63	1	6.3425432e-002	3	1	1	1	3550	266
3	187	1	9.049093e-002	3	1	2	2	3550	610
3	158	1	-2.30196067e-002	3	1	1	1	3560	242
3	60	1	-7.6721658e-002	3	1	2	2	3560	823
3	212	1	9.828815e-003	3	2	1	4	3560	193
3	219	1	-7.3086139e-002	3	2	2	3	3570	55
3	92	1	1.6637085e-002	3	1	1	1	3580	78
3	85	1	-8.8086021e-002	3	1	2	2	3580	89
3	138	1	4.4031015e-002	3	1	1	1	3590	160
3	42	1	0.17143495	3	1	1	1	3600	257
3	76	1	3.8847598e-002	3	1	1	1	3610	312
3	82	1	0.16993933	3	1	1	1	3620	226
3	69	1	0.16760009	3	1	1	1	3630	312
3	125	1	1.5014328e-002	3	1	2	2	3630	186
3	213	1	1.68343828e-002	3	2	2	3	3640	166
3	149	1	0.18841195	3	1	1	1	3650	102
3	154	1	0.18834135	3	1	1	1	3660	101
3	99	1	0.13218764	3	1	1	1	3670	149
3	132	1	7.8063085e-002	3	1	1	1	3680	202
3	79	1	0.15068492	3	1	1	1	3690	127
3	93	1	0.19019004	3	1	1	1	3700	77
3	146	1	0.22183576	3	1	1	1	3710	279
3	113	1	-5.3430309e-002	3	1	2	2	3710	304
3	152	1	-8.1986924e-002	3	1	2	2	3710	377
3	223	1	-0.34383796	3	2	2	3	3720	168
3	171	1	6.0837718e-002	3	1	1	1	3730	224
3	178	1	0.35825861	3	1	1	1	3740	370
3	94	1	8.297883e-003	3	1	1	1	3750	339
3	190	1	0.12707564	3	1	2	2	3750	590
3	73	1	3.4095359e-002	3	1	1	1	3760	226
3	136	1	0.15631092	3	1	1	1	3770	471
3	195	1	2.35039295e-002	3	2	2	3	3780	87
3	224	1	-2.5489832e-002	3	2	2	3	3790	493
3	59	1	0.18398944	3	1	1	1	3800	64
3	101	1	0.19684062	3	1	1	1	3810	292
3	118	1	0.14971622	3	1	1	1	3820	361
3	87	1	0.24634625	3	1	1	1	3830	121
3	238	1	-7.640521e-003	3	2	2	3	3840	318
3	80	1	0.14075702	3	1	1	1	3850	184
3	226	1	-0.12443304	3	2	2	3	3860	97
3	168	1	-4.221675e-002	3	1	2	2	3860	109
3	193	1	-6.341075e-003	3	2	2	3	3870	132
3	134	1	-7.8974118e-002	3	1	2	2	3870	1061
3	91	1	3.1487821e-002	3	1	1	1	3880	512
3	237	1	-0.21637439	3	2	2	3	3890	223
3	180	1	2.0305485e-002	3	1	1	1	3900	33
3	97	1	1.6456825e-002	3	1	2	2	3900	226
3	182	1	0.17248121	3	1	1	1	3910	315
3	50	1	1.0133324e-002	3	1	1	1	3920	390
3	159	1	0.13928357	3	1	1	1	3930	112
3	114	1	0.18042367	3	1	1	1	3940	24
3	188	1	2.3963825e-002	3	1	1	1	3950	315
3	197	1	-0.11078829	3	2	2	3	3960	130
3	151	1	0.14429255	3	1	1	1	3970	157
3	98	1	4.2649729e-002	3	1	1	1	3980	217
3	201	1	-0.16269556	3	2	2	3	3990	35
3	239	1	-9.036276e-002	3	2	2	3	4000	71
3	155	1	-0.14401199	3	1	2	2	4000	197
3	185	1	3.5198479e-002	3	1	1	1	4010	281
3	70	1	9.38308e-002	3	1	1	1	4020	1275
3	109	1	-1.2572349e-002	3	1	1	1	4030	911
3	156	1	5.6435572e-002	3	1	1	1	4040	385
3	148	1	7.2531232e-002	3	1	2	2	4040	1702
3	166	1	4.520745e-002	3	1	1	1	4050	276
3	48	1	3.641921e-003	3	1	1	1	4060	128
3	77	1	2.5992232e-002	3	1	1	1	4070	195
3	62	1	-1.65552625e-002	3	1	2	2	4070	398
3	83	1	8.327174e-002	3	1	1	1	4080	144
3	191	1	-0.1350841	3	2	2	3	4090	459
3	86	1	8.377812e-002	3	1	1	1	4100	231
3	165	1	0.11806104	3	1	1	1	4110	123
3	135	1	0.10496505	3	1	2	2	4110	546
3	196	1	-0.11434074	3	2	2	3	4120	149
3	174	1	3.4795858e-002	3	1	1	1	4130	304
3	133	1	0.12322552	3	1	1	1	4140	166
3	173	1	0.2759332	3	1	1	1	4150	273
3	169	1	8.215643e-002	3	1	1	1	4160	254
3	175	1	0.13332546	3	1	1	1	4170	711
3	198	1	4.9557083e-002	3	2	1	4	4170	725
3	214	1	-7.4337257e-002	3	2	2	3	4180	603
3	217	1	-0.26036553	3	2	2	3	4190	213
3	57	1	-4.6593037e-002	3	1	2	2	4190	84
3	106	1	0.13762177	3	1	1	1	4200	155
3	172	1	0.14895146	3	1	1	1	4210	432
3	176	1	3.4294456e-002	3	1	2	2	4210	737
3	111	1	0.17879209	3	1	1	1	4220	245
3	189	1	0.12334416	3	1	1	1	4230	143
3	240	1	-0.26530058	3	2	2	3	4240	65
3	227	1	0.1579327	3	2	1	4	4240	482
3	150	1	7.8545044e-002	3	1	2	2	4240	415
3	88	1	0.16309997	3	1	1	1	4250	241
3	216	1	7.201041e-003	3	2	1	4	4250	73
3	51	1	0.1654441	3	1	1	1	4260	42
3	202	1	-0.13172171	3	2	2	3	4270	98
3	160	1	0.18902526	3	1	1	1	4280	71
3	143	1	0.13505928	3	1	1	1	4290	256
3	225	1	2.78006343e-002	3	2	1	4	4290	168
3	72	1	6.3323332e-002	3	1	1	1	4300	882
3	71	1	0.30422314	3	1	1	1	4310	374
3	64	1	8.456788e-002	3	1	1	1	4320	80
3	221	1	-0.16848597	3	2	2	3	4330	335
3	141	1	0.20418683	3	1	1	1	4340	190
3	163	1	0.26022461	3	1	1	1	4350	180
3	222	1	-0.22101754	3	2	2	3	4360	53
3	100	1	0.15128994	3	1	1	1	4370	59
3	230	1	-9.456881e-002	3	2	2	3	4380	138
3	49	1	-4.3569781e-002	3	1	2	2	4380	156
3	220	1	-4.3441322e-002	3	2	2	3	4390	121
3	210	1	6.431265e-002	3	2	1	4	4390	123
3	192	1	-0.21422651	3	2	2	3	4400	112
3	203	1	-4.0009063e-002	3	2	2	3	4410	159
3	112	1	8.813816e-003	3	1	2	2	4410	360
3	162	1	2.8077879e-002	3	1	1	1	4420	470
3	122	1	3.35149e-003	3	1	2	2	4420	502
3	123	1	3.065478e-002	3	1	1	1	4430	238
3	194	1	-0.17195489	3	2	2	3	4440	627
3	130	1	5.3209321e-002	3	1	1	1	4450	480
3	52	1	5.2543439e-002	3	1	1	1	4460	89
3	167	1	0.13073297	3	1	1	1	4470	130
3	128	1	0.1119257	3	1	1	1	4480	98
3	179	1	9.813291e-002	3	1	1	1	4490	364
3	177	1	8.894461e-002	3	1	1	1	4500	487
3	181	1	0.18022244	3	1	1	1	4510	154
3	95	1	0.30000215	3	1	1	1	4520	244
3	120	1	0.23539132	3	1	1	1	4530	187
3	44	1	0.11735506	3	1	1	1	4540	331
3	124	1	0.23045367	3	1	1	1	4550	134
3	208	1	-1.2878555e-002	3	2	2	3	4560	230
3	66	1	0.11704364	3	1	1	1	4570	130
4	10	0	-5.3879728e-002	4	1	2	2	4570	196
4	13	0	6.6746294e-002	4	1	1	1	4570	321
4	19	0	0.50080661	4	1	1	1	4570	131
4	18	0	6.0089443e-002	4	1	1	1	4570	95
4	9	0	0.18917244	4	1	1	1	4570	66
4	7	0	7.6261897e-002	4	1	2	2	4570	94
4	16	0	0.250133	4	1	1	1	4570	49
4	24	0	-6.8563484e-002	4	1	2	2	4570	53
4	29	0	0.39795047	4	1	1	1	4570	320
4	17	0	0.25163095	4	1	1	1	4570	37
4	1	0	0.1923527	4	1	1	1	4570	166
4	20	0	0.1988371	4	1	1	1	4570	11
4	33	0	3.844629e-002	4	2	2	3	4570	8
4	22	0	8.462419e-002	4	1	1	1	4570	34
4	21	0	0.20039717	4	1	1	1	4570	109
4	8	0	-0.12760913	4	1	2	2	4570	6
4	6	0	-4.2695798e-002	4	1	2	2	4570	55
4	2	0	0.18994203	4	1	1	1	4570	52
4	39	0	-0.11076994	4	2	2	3	4570	43
4	40	0	2.21576856e-002	4	2	2	3	4570	62
4	35	0	-8.354934e-002	4	2	2	3	4570	77
4	5	0	0.21101478	4	1	1	1	4570	65
4	32	0	-0.48216788	4	2	2	3	4570	37
4	37	0	-0.14231279	4	2	2	3	4570	81
4	25	0	6.073893e-002	4	1	2	2	4570	46
4	34	0	-9.684105e-002	4	2	2	3	4570	38
4	3	0	0.55966833	4	1	1	1	4570	14
4	38	0	0.30035098	4	2	1	4	4570	483
4	30	0	-0.3263697	4	1	2	2	4570	19
4	11	0	0.35295918	4	1	1	1	4570	377
4	36	0	-0.16121901	4	2	2	3	4570	59
4	4	0	0.17146416	4	1	1	1	4570	137
4	14	0	8.424323e-003	4	1	1	1	4570	313
4	27	0	-0.16625248	4	1	2	2	4570	104
4	15	0	-0.19488676	4	1	2	2	4570	3
4	31	0	-0.29239754	4	2	2	3	4570	330
4	28	0	-0.28753088	4	1	2	2	4570	59
4	23	0	0.23372836	4	1	1	1	4570	79
4	12	0	0.27577016	4	1	1	1	4570	1
4	26	0	-0.119046145	4	1	2	2	4570	97
4	145	1	6.6594952e-002	4	1	1	1	4580	266
4	162	1	-6.7433024e-002	4	1	2	2	4580	123
4	186	1	0.30228795	4	1	1	1	4590	35
4	144	1	0.13531938	4	1	1	1	4600	57
4	137	1	9.951727e-002	4	1	1	1	4610	53
4	102	1	-2.46693623e-002	4	1	2	2	4610	92
4	152	1	8.38525e-002	4	1	1	1	4620	107
4	159	1	0.20468621	4	1	1	1	4630	100
4	45	1	-1.72258406e-002	4	1	2	2	4630	109
4	114	1	0.27832376	4	1	1	1	4640	73
4	153	1	-0.1900707	4	1	2	2	4640	91
4	130	1	0.20453402	4	1	1	1	4650	16
4	52	1	-8.1352766e-002	4	1	1	1	4660	270
4	231	1	-0.10029087	4	2	1	4	4660	39
4	127	1	0.32828485	4	1	1	1	4670	47
4	225	1	-0.4434471	4	2	2	3	4680	78
4	115	1	0.21728745	4	1	1	1	4690	56
4	158	1	-1.49712756e-002	4	1	2	2	4690	72
4	87	1	0.20995	4	1	1	1	4700	126
4	205	1	-2.9141138e-002	4	2	2	3	4710	39
4	238	1	7.9053285e-002	4	2	1	4	4710	138
4	92	1	-0.116253173	4	1	2	2	4710	116
4	196	1	4.9830563e-002	4	2	1	4	4710	116
4	219	1	-0.37234657	4	2	2	3	4720	20
4	213	1	-0.42339145	4	2	2	3	4730	46
4	111	1	3.4632413e-002	4	1	1	1	4740	277
4	50	1	0.24491746	4	1	1	1	4750	147
4	98	1	0.12427294	4	1	1	1	4760	11
4	218	1	-0.12596143	4	2	2	3	4770	75
4	106	1	0.16442538	4	1	1	1	4780	63
4	170	1	0.20043727	4	1	1	1	4790	52
4	95	1	6.9957059e-002	4	1	1	1	4800	74
4	71	1	-3.9009916e-002	4	1	2	2	4800	48
4	124	1	-6.5096526e-002	4	1	2	2	4800	42
4	147	1	0.16346234	4	1	1	1	4810	39
4	233	1	-0.23288189	4	2	2	3	4820	100
4	201	1	8.9300133e-002	4	2	1	4	4820	60
4	178	1	6.203479e-002	4	1	1	1	4830	71
4	126	1	4.2497737e-002	4	1	1	1	4840	58
4	146	1	-6.3455646e-002	4	1	2	2	4840	32
4	119	1	0.15882012	4	1	1	1	4850	27
4	72	1	-6.7133917e-002	4	1	2	2	4850	171
4	51	1	6.7919335e-002	4	1	1	1	4860	84
4	96	1	2.2672e-003	4	1	2	2	4860	126
4	62	1	5.6762408e-002	4	1	1	1	4870	148
4	155	1	0.18832635	4	1	1	1	4880	197
4	128	1	0.17449766	4	1	1	1	4890	179
4	133	1	0.10303056	4	1	1	1	4900	121
4	42	1	7.8246618e-002	4	1	1	1	4910	72
4	206	1	0.16155789	4	2	1	4	4910	117
4	68	1	0.5301862	4	1	1	1	4920	155
4	100	1	-0.25943895	4	1	2	2	4920	76
4	76	1	-0.17697738	4	1	2	2	4920	58
4	143	1	0.19350143	4	1	1	1	4930	103
4	84	1	-1.35564452e-002	4	1	1	1	4940	291
4	132	1	6.1100553e-002	4	1	1	1	4950	142
4	65	1	0.42043781	4	1	1	1	4960	108
4	63	1	5.1237546e-002	4	1	1	1	4970	67
4	64	1	0.29495391	4	1	1	1	4980	33
4	154	1	0.1029271	4	1	1	1	4990	57
4	48	1	3.5443225e-002	4	1	2	2	4990	106
4	171	1	8.808854e-002	4	1	1	1	5000	77
4	104	1	0.25713557	4	1	1	1	5010	57
4	121	1	-6.1820678e-002	4	1	2	2	5010	723
4	56	1	7.465039e-002	4	1	1	1	5020	199
4	57	1	0.46316485	4	1	1	1	5030	67
4	194	1	7.8828543e-002	4	2	1	4	5030	166
4	235	1	-0.23798655	4	2	2	3	5040	77
4	66	1	0.15824707	4	1	1	1	5050	85
4	110	1	1.9293558e-002	4	1	1	1	5060	145
4	176	1	-0.3244186	4	1	2	2	5060	91
4	165	1	-0.40944745	4	1	2	2	5060	52
4	220	1	-0.65646723	4	2	2	3	5070	3
4	236	1	-4.7672574e-002	4	2	2	3	5080	91
4	122	1	8.586933e-002	4	1	1	1	5090	137
4	131	1	0.28184676	4	1	1	1	5100	130
4	113	1	0.3051519	4	1	1	1	5110	97
4	103	1	-0.26316577	4	1	2	2	5110	140
4	180	1	0.21044515	4	1	1	1	5120	21
4	109	1	0.2095312	4	1	1	1	5130	26
4	46	1	9.557959e-002	4	1	1	1	5140	133
4	141	1	0.30564567	4	1	1	1	5150	435
4	190	1	-0.1545941	4	1	2	2	5150	264
4	108	1	7.149735e-003	4	1	2	2	5150	98
4	44	1	-0.115723171	4	1	2	2	5150	75
4	169	1	-0.47836774	4	1	2	2	5150	39
4	60	1	-0.17306157	4	1	2	2	5150	95
4	167	1	-0.31691476	4	1	2	2	5150	119
4	116	1	0.18625086	4	1	1	1	5160	114
4	200	1	0.23333669	4	2	1	4	5160	35
4	129	1	0.29889448	4	1	1	1	5170	71
4	53	1	0.42256756	4	1	1	1	5180	124
4	212	1	-0.21145938	4	2	2	3	5190	293
4	184	1	5.3330429e-002	4	1	1	1	5200	108
4	138	1	7.0881072e-002	4	1	1	1	5210	99
4	223	1	-0.19532918	4	2	2	3	5220	111
4	216	1	-0.1821394	4	2	1	4	5220	7697
4	173	1	-0.18019512	4	1	2	2	5220	351
4	91	1	3.2733547e-002	4	1	1	1	5230	249
4	234	1	2.027509e-003	4	2	1	4	5230	83
4	99	1	2.0535003e-002	4	1	1	1	5240	23
4	217	1	-5.7322523e-002	4	2	1	4	5240	52
4	117	1	0.22528741	4	1	1	1	5250	172
4	69	1	7.7864414e-002	4	1	1	1	5260	183
4	93	1	-7.3917646e-002	4	1	2	2	5260	85
4	86	1	0.25792493	4	1	1	1	5270	156
4	179	1	1.1547516e-002	4	1	1	1	5280	79
4	211	1	1.37531049e-002	4	2	1	4	5280	59
4	237	1	0.3155808	4	2	1	4	5280	363
4	175	1	2.4308912e-002	4	1	2	2	5280	244
4	140	1	-0.23272375	4	1	2	2	5280	80
4	81	1	-0.13679587	4	1	2	2	5280	93
4	148	1	0.30491198	4	1	1	1	5290	114
4	83	1	9.633604e-002	4	1	1	1	5300	234
4	230	1	-0.13455961	4	2	2	3	5310	333
4	59	1	-0.28161974	4	1	2	2	5310	180
4	164	1	0.38415075	4	1	1	1	5320	233
4	105	1	-0.35332907	4	1	2	2	5320	145
4	222	1	-0.17249319	4	2	2	3	5330	182
4	208	1	0.17902935	4	2	1	4	5330	188
4	215	1	5.8827453e-002	4	2	1	4	5330	188
4	227	1	-4.7712824e-002	4	2	2	3	5340	375
4	156	1	-7.3533173e-002	4	1	2	2	5340	234
4	157	1	0.33656502	4	1	1	1	5350	251
4	204	1	-0.15950714	4	2	2	3	5360	84
4	107	1	2.1038181e-002	4	1	1	1	5370	80
4	197	1	-0.24629485	4	2	2	3	5380	88
4	120	1	0.20632483	4	1	1	1	5390	81
4	136	1	0.69485457	4	1	1	1	5400	61
4	198	1	9.9190812e-002	4	2	1	4	5400	173
4	54	1	0.26243167	4	1	1	1	5410	26
4	134	1	-4.5631398e-002	4	1	2	2	5410	108
4	139	1	0.25165114	4	1	1	1	5420	70
4	239	1	0.12747335	4	2	1	4	5420	116
4	214	1	0.21410382	4	2	1	4	5420	93
4	199	1	-0.44269728	4	2	2	3	5430	70
4	174	1	-0.18359581	4	1	2	2	5430	52
4	228	1	-0.29236217	4	2	2	3	5440	34
4	226	1	-0.18434612	4	2	2	3	5450	134
4	135	1	0.15751449	4	1	1	1	5460	136
4	80	1	0.54257273	4	1	1	1	5470	128
4	232	1	-0.36582119	4	2	2	3	5480	76
4	142	1	-8.9514341e-002	4	1	2	2	5480	536
4	125	1	8.015287e-002	4	1	1	1	5490	323
4	41	1	0.21585998	4	1	1	1	5500	73
4	101	1	-3.9741858e-002	4	1	2	2	5500	247
4	166	1	-0.17800928	4	1	2	2	5500	67
4	240	1	0.39206599	4	2	1	4	5500	193
4	79	1	0.32052044	4	1	1	1	5510	175
4	191	1	7.503544e-003	4	2	1	4	5510	448
4	187	1	0.32043325	4	1	1	1	5520	9
4	97	1	1.7610978e-002	4	1	1	1	5530	126
4	160	1	1.0460526e-002	4	1	1	1	5540	411
4	209	1	0.47362461	4	2	1	4	5540	201
4	112	1	-9.4316167e-002	4	1	2	2	5540	188
4	89	1	0.28493928	4	1	1	1	5550	120
4	168	1	-0.18858936	4	1	2	2	5550	90
4	202	1	-5.7969033e-002	4	2	2	3	5560	251
4	58	1	0.26393542	4	1	1	1	5570	129
4	207	1	-0.28670832	4	2	2	3	5580	53
4	67	1	0.10546631	4	1	1	1	5590	209
4	185	1	-4.520747e-002	4	1	2	2	5590	112
4	189	1	-0.12534951	4	1	2	2	5590	103
4	118	1	0.21885077	4	1	1	1	5600	129
4	55	1	0.37776834	4	1	1	1	5610	162
4	47	1	8.52402e-002	4	1	1	1	5620	108
4	221	1	-8.949352e-002	4	2	2	3	5630	533
4	188	1	9.447637e-002	4	1	1	1	5640	248
4	70	1	-1.01098365e-002	4	1	2	2	5640	532
4	94	1	-0.16722458	4	1	2	2	5640	132
4	150	1	0.35921833	4	1	1	1	5650	104
4	172	1	-0.12618353	4	1	2	2	5650	89
4	183	1	8.615719e-002	4	1	1	1	5660	149
4	177	1	0.16134597	4	1	1	1	5670	128
4	73	1	9.633901e-002	4	1	1	1	5680	134
4	149	1	0.21652865	4	1	1	1	5690	107
4	163	1	-0.21020715	4	1	2	2	5690	126
4	78	1	0.29825656	4	1	1	1	5700	156
4	182	1	1.1062862e-002	4	1	1	1	5710	192
4	195	1	-0.11945276	4	2	2	3	5720	152
4	151	1	-0.19771783	4	1	2	2	5720	226
4	77	1	0.16724043	4	1	1	1	5730	120
4	193	1	-0.34150052	4	2	2	3	5740	130
4	61	1	0.19672612	4	1	1	1	5750	129
4	210	1	-0.17906943	4	2	2	3	5760	107
4	74	1	-9.2171393e-002	4	1	2	2	5760	79
4	181	1	0.14914898	4	1	1	1	5770	40
4	229	1	1.00987478e-002	4	2	1	4	5770	92
4	123	1	0.19007538	4	1	1	1	5780	376
4	192	1	-0.2475352	4	2	2	3	5790	97
4	224	1	-0.24919367	4	2	2	3	5800	8
4	49	1	-1.59410998e-002	4	1	1	1	5810	111
4	82	1	0.35290685	4	1	1	1	5820	3
4	75	1	-0.2916821	4	1	2	2	5820	113
4	88	1	-0.28123572	4	1	2	2	5820	130
4	90	1	0.24504645	4	1	1	1	5830	70
4	43	1	0.46238826	4	1	1	1	5840	294
4	203	1	-0.31222031	4	2	1	4	5840	305
4	85	1	-5.275935e-003	4	1	1	1	5850	164
4	161	1	-7.1664824e-002	4	1	1	1	5860	196
